File: Chapter_3/IR/ir_c2_f7_melt.csv
,Wavenumber,Absorbance,film
0,399.496,1.163,doped PBTTT
1,400.46,1.257,doped PBTTT
2,401.424,1.326,doped PBTTT
3,402.389,1.346,doped PBTTT
4,403.353,1.34,doped PBTTT
5,404.317,1.353,doped PBTTT
6,405.281,1.423,doped PBTTT
7,406.246,1.579,doped PBTTT
8,407.21,1.837,doped PBTTT
9,408.174,2.099,doped PBTTT
10,409.138,2.098,doped PBTTT
11,410.102,1.814,doped PBTTT
12,411.067,1.564,doped PBTTT
13,412.031,1.41,doped PBTTT
14,412.995,1.326,doped PBTTT
15,413.959,1.289,doped PBTTT
16,414.924,1.277,doped PBTTT
17,415.888,1.276,doped PBTTT
18,416.852,1.277,doped PBTTT
19,417.816,1.272,doped PBTTT
20,418.781,1.256,doped PBTTT
21,419.745,1.225,doped PBTTT
22,420.709,1.183,doped PBTTT
23,421.673,1.14,doped PBTTT
24,422.637,1.104,doped PBTTT
25,423.602,1.083,doped PBTTT
26,424.566,1.08,doped PBTTT
27,425.53,1.099,doped PBTTT
28,426.494,1.139,doped PBTTT
29,427.459,1.195,doped PBTTT
30,428.423,1.255,doped PBTTT
31,429.387,1.305,doped PBTTT
32,430.351,1.329,doped PBTTT
33,431.316,1.321,doped PBTTT
34,432.28,1.293,doped PBTTT
35,433.244,1.259,doped PBTTT
36,434.208,1.229,doped PBTTT
37,435.173,1.206,doped PBTTT
38,436.137,1.187,doped PBTTT
39,437.101,1.17,doped PBTTT
40,438.065,1.158,doped PBTTT
41,439.029,1.151,doped PBTTT
42,439.994,1.153,doped PBTTT
43,440.958,1.16,doped PBTTT
44,441.922,1.165,doped PBTTT
45,442.886,1.158,doped PBTTT
46,443.851,1.135,doped PBTTT
47,444.815,1.101,doped PBTTT
48,445.779,1.067,doped PBTTT
49,446.743,1.038,doped PBTTT
50,447.708,1.019,doped PBTTT
51,448.672,1.006,doped PBTTT
52,449.636,0.9983,doped PBTTT
53,450.6,0.9928,doped PBTTT
54,451.564,0.9877,doped PBTTT
55,452.529,0.9812,doped PBTTT
56,453.493,0.9707,doped PBTTT
57,454.457,0.9538,doped PBTTT
58,455.421,0.9304,doped PBTTT
59,456.386,0.9043,doped PBTTT
60,457.35,0.8822,doped PBTTT
61,458.314,0.8703,doped PBTTT
62,459.278,0.8692,doped PBTTT
63,460.243,0.8731,doped PBTTT
64,461.207,0.8729,doped PBTTT
65,462.171,0.8616,doped PBTTT
66,463.135,0.8394,doped PBTTT
67,464.1,0.8122,doped PBTTT
68,465.064,0.7883,doped PBTTT
69,466.028,0.7732,doped PBTTT
70,466.992,0.7675,doped PBTTT
71,467.956,0.7668,doped PBTTT
72,468.921,0.7648,doped PBTTT
73,469.885,0.7569,doped PBTTT
74,470.849,0.743,doped PBTTT
75,471.813,0.7273,doped PBTTT
76,472.778,0.7152,doped PBTTT
77,473.742,0.7091,doped PBTTT
78,474.706,0.7075,doped PBTTT
79,475.67,0.7062,doped PBTTT
80,476.635,0.7014,doped PBTTT
81,477.599,0.6917,doped PBTTT
82,478.563,0.6784,doped PBTTT
83,479.527,0.6643,doped PBTTT
84,480.491,0.6521,doped PBTTT
85,481.456,0.6435,doped PBTTT
86,482.42,0.6383,doped PBTTT
87,483.384,0.6352,doped PBTTT
88,484.348,0.6323,doped PBTTT
89,485.313,0.6279,doped PBTTT
90,486.277,0.6211,doped PBTTT
91,487.241,0.6125,doped PBTTT
92,488.205,0.6035,doped PBTTT
93,489.17,0.5958,doped PBTTT
94,490.134,0.5909,doped PBTTT
95,491.098,0.5889,doped PBTTT
96,492.062,0.5883,doped PBTTT
97,493.027,0.5868,doped PBTTT
98,493.991,0.5822,doped PBTTT
99,494.955,0.5736,doped PBTTT
100,495.919,0.5618,doped PBTTT
101,496.883,0.5486,doped PBTTT
102,497.848,0.536,doped PBTTT
103,498.812,0.525,doped PBTTT
104,499.776,0.5165,doped PBTTT
105,500.74,0.5105,doped PBTTT
106,501.705,0.5067,doped PBTTT
107,502.669,0.5044,doped PBTTT
108,503.633,0.5024,doped PBTTT
109,504.597,0.4994,doped PBTTT
110,505.562,0.4945,doped PBTTT
111,506.526,0.4874,doped PBTTT
112,507.49,0.4787,doped PBTTT
113,508.454,0.4697,doped PBTTT
114,509.418,0.4622,doped PBTTT
115,510.383,0.4574,doped PBTTT
116,511.347,0.4559,doped PBTTT
117,512.311,0.4569,doped PBTTT
118,513.275,0.4592,doped PBTTT
119,514.24,0.4607,doped PBTTT
120,515.204,0.4598,doped PBTTT
121,516.168,0.4559,doped PBTTT
122,517.132,0.4492,doped PBTTT
123,518.097,0.4411,doped PBTTT
124,519.061,0.4335,doped PBTTT
125,520.025,0.4272,doped PBTTT
126,520.989,0.4225,doped PBTTT
127,521.954,0.419,doped PBTTT
128,522.918,0.4162,doped PBTTT
129,523.882,0.4137,doped PBTTT
130,524.846,0.4116,doped PBTTT
131,525.81,0.41,doped PBTTT
132,526.775,0.4087,doped PBTTT
133,527.739,0.4075,doped PBTTT
134,528.703,0.4063,doped PBTTT
135,529.667,0.4048,doped PBTTT
136,530.632,0.4031,doped PBTTT
137,531.596,0.4012,doped PBTTT
138,532.56,0.3989,doped PBTTT
139,533.524,0.3964,doped PBTTT
140,534.489,0.3938,doped PBTTT
141,535.453,0.3916,doped PBTTT
142,536.417,0.3902,doped PBTTT
143,537.381,0.3898,doped PBTTT
144,538.346,0.3901,doped PBTTT
145,539.31,0.3904,doped PBTTT
146,540.274,0.3902,doped PBTTT
147,541.238,0.3891,doped PBTTT
148,542.202,0.3872,doped PBTTT
149,543.167,0.3851,doped PBTTT
150,544.131,0.3832,doped PBTTT
151,545.095,0.3821,doped PBTTT
152,546.059,0.3815,doped PBTTT
153,547.024,0.3812,doped PBTTT
154,547.988,0.3808,doped PBTTT
155,548.952,0.3804,doped PBTTT
156,549.916,0.3801,doped PBTTT
157,550.881,0.3802,doped PBTTT
158,551.845,0.3806,doped PBTTT
159,552.809,0.3812,doped PBTTT
160,553.773,0.3817,doped PBTTT
161,554.737,0.3819,doped PBTTT
162,555.702,0.3818,doped PBTTT
163,556.666,0.3815,doped PBTTT
164,557.63,0.3814,doped PBTTT
165,558.594,0.3816,doped PBTTT
166,559.559,0.3821,doped PBTTT
167,560.523,0.3828,doped PBTTT
168,561.487,0.3835,doped PBTTT
169,562.451,0.384,doped PBTTT
170,563.416,0.3842,doped PBTTT
171,564.38,0.3841,doped PBTTT
172,565.344,0.3838,doped PBTTT
173,566.308,0.3834,doped PBTTT
174,567.273,0.3833,doped PBTTT
175,568.237,0.3835,doped PBTTT
176,569.201,0.3842,doped PBTTT
177,570.165,0.3852,doped PBTTT
178,571.129,0.3863,doped PBTTT
179,572.094,0.3876,doped PBTTT
180,573.058,0.3892,doped PBTTT
181,574.022,0.3912,doped PBTTT
182,574.986,0.3938,doped PBTTT
183,575.951,0.3968,doped PBTTT
184,576.915,0.3997,doped PBTTT
185,577.879,0.402,doped PBTTT
186,578.843,0.4032,doped PBTTT
187,579.808,0.4032,doped PBTTT
188,580.772,0.4025,doped PBTTT
189,581.736,0.4018,doped PBTTT
190,582.7,0.4017,doped PBTTT
191,583.664,0.4027,doped PBTTT
192,584.629,0.4049,doped PBTTT
193,585.593,0.408,doped PBTTT
194,586.557,0.4116,doped PBTTT
195,587.521,0.4153,doped PBTTT
196,588.486,0.4188,doped PBTTT
197,589.45,0.4219,doped PBTTT
198,590.414,0.4245,doped PBTTT
199,591.378,0.4265,doped PBTTT
200,592.343,0.4279,doped PBTTT
201,593.307,0.4286,doped PBTTT
202,594.271,0.4291,doped PBTTT
203,595.235,0.4298,doped PBTTT
204,596.2,0.4309,doped PBTTT
205,597.164,0.4326,doped PBTTT
206,598.128,0.4344,doped PBTTT
207,599.092,0.436,doped PBTTT
208,600.056,0.4369,doped PBTTT
209,601.021,0.4373,doped PBTTT
210,601.985,0.4375,doped PBTTT
211,602.949,0.4377,doped PBTTT
212,603.913,0.4383,doped PBTTT
213,604.878,0.439,doped PBTTT
214,605.842,0.4399,doped PBTTT
215,606.806,0.441,doped PBTTT
216,607.77,0.4422,doped PBTTT
217,608.735,0.4438,doped PBTTT
218,609.699,0.4458,doped PBTTT
219,610.663,0.4483,doped PBTTT
220,611.627,0.4511,doped PBTTT
221,612.591,0.4542,doped PBTTT
222,613.556,0.4574,doped PBTTT
223,614.52,0.4609,doped PBTTT
224,615.484,0.4645,doped PBTTT
225,616.448,0.4681,doped PBTTT
226,617.413,0.4712,doped PBTTT
227,618.377,0.4733,doped PBTTT
228,619.341,0.474,doped PBTTT
229,620.305,0.4735,doped PBTTT
230,621.27,0.472,doped PBTTT
231,622.234,0.4706,doped PBTTT
232,623.198,0.4699,doped PBTTT
233,624.162,0.4706,doped PBTTT
234,625.127,0.4728,doped PBTTT
235,626.091,0.4761,doped PBTTT
236,627.055,0.4798,doped PBTTT
237,628.019,0.4831,doped PBTTT
238,628.983,0.4857,doped PBTTT
239,629.948,0.4877,doped PBTTT
240,630.912,0.4893,doped PBTTT
241,631.876,0.4906,doped PBTTT
242,632.84,0.4915,doped PBTTT
243,633.805,0.4923,doped PBTTT
244,634.769,0.4932,doped PBTTT
245,635.733,0.4945,doped PBTTT
246,636.697,0.4963,doped PBTTT
247,637.662,0.4984,doped PBTTT
248,638.626,0.5005,doped PBTTT
249,639.59,0.5024,doped PBTTT
250,640.554,0.5042,doped PBTTT
251,641.518,0.5062,doped PBTTT
252,642.483,0.509,doped PBTTT
253,643.447,0.5122,doped PBTTT
254,644.411,0.5152,doped PBTTT
255,645.375,0.5172,doped PBTTT
256,646.34,0.5176,doped PBTTT
257,647.304,0.5167,doped PBTTT
258,648.268,0.5159,doped PBTTT
259,649.232,0.5163,doped PBTTT
260,650.197,0.5186,doped PBTTT
261,651.161,0.5224,doped PBTTT
262,652.125,0.5269,doped PBTTT
263,653.089,0.5312,doped PBTTT
264,654.054,0.535,doped PBTTT
265,655.018,0.5385,doped PBTTT
266,655.982,0.5421,doped PBTTT
267,656.946,0.5458,doped PBTTT
268,657.91,0.5495,doped PBTTT
269,658.875,0.5532,doped PBTTT
270,659.839,0.5568,doped PBTTT
271,660.803,0.5602,doped PBTTT
272,661.767,0.5634,doped PBTTT
273,662.732,0.5662,doped PBTTT
274,663.696,0.5684,doped PBTTT
275,664.66,0.5701,doped PBTTT
276,665.624,0.5717,doped PBTTT
277,666.589,0.5743,doped PBTTT
278,667.553,0.5795,doped PBTTT
279,668.517,0.5875,doped PBTTT
280,669.481,0.5956,doped PBTTT
281,670.445,0.6008,doped PBTTT
282,671.41,0.6031,doped PBTTT
283,672.374,0.604,doped PBTTT
284,673.338,0.6047,doped PBTTT
285,674.302,0.6055,doped PBTTT
286,675.267,0.6065,doped PBTTT
287,676.231,0.6076,doped PBTTT
288,677.195,0.6088,doped PBTTT
289,678.159,0.6102,doped PBTTT
290,679.124,0.6119,doped PBTTT
291,680.088,0.614,doped PBTTT
292,681.052,0.6162,doped PBTTT
293,682.016,0.6184,doped PBTTT
294,682.981,0.6206,doped PBTTT
295,683.945,0.623,doped PBTTT
296,684.909,0.6255,doped PBTTT
297,685.873,0.6281,doped PBTTT
298,686.837,0.6303,doped PBTTT
299,687.802,0.6321,doped PBTTT
300,688.766,0.6335,doped PBTTT
301,689.73,0.635,doped PBTTT
302,690.694,0.6372,doped PBTTT
303,691.659,0.6405,doped PBTTT
304,692.623,0.6449,doped PBTTT
305,693.587,0.6501,doped PBTTT
306,694.551,0.6556,doped PBTTT
307,695.516,0.6609,doped PBTTT
308,696.48,0.6659,doped PBTTT
309,697.444,0.6707,doped PBTTT
310,698.408,0.6756,doped PBTTT
311,699.372,0.681,doped PBTTT
312,700.337,0.6869,doped PBTTT
313,701.301,0.6929,doped PBTTT
314,702.265,0.6989,doped PBTTT
315,703.229,0.7044,doped PBTTT
316,704.194,0.7096,doped PBTTT
317,705.158,0.7145,doped PBTTT
318,706.122,0.7195,doped PBTTT
319,707.086,0.7244,doped PBTTT
320,708.051,0.7295,doped PBTTT
321,709.015,0.7347,doped PBTTT
322,709.979,0.7404,doped PBTTT
323,710.943,0.7468,doped PBTTT
324,711.908,0.7541,doped PBTTT
325,712.872,0.7619,doped PBTTT
326,713.836,0.7694,doped PBTTT
327,714.8,0.7759,doped PBTTT
328,715.764,0.7809,doped PBTTT
329,716.729,0.7847,doped PBTTT
330,717.693,0.7879,doped PBTTT
331,718.657,0.7908,doped PBTTT
332,719.621,0.7936,doped PBTTT
333,720.586,0.7958,doped PBTTT
334,721.55,0.7969,doped PBTTT
335,722.514,0.797,doped PBTTT
336,723.478,0.7961,doped PBTTT
337,724.443,0.7949,doped PBTTT
338,725.407,0.7937,doped PBTTT
339,726.371,0.7926,doped PBTTT
340,727.335,0.7917,doped PBTTT
341,728.299,0.7911,doped PBTTT
342,729.264,0.7912,doped PBTTT
343,730.228,0.7922,doped PBTTT
344,731.192,0.7945,doped PBTTT
345,732.156,0.7983,doped PBTTT
346,733.121,0.8034,doped PBTTT
347,734.085,0.8093,doped PBTTT
348,735.049,0.8157,doped PBTTT
349,736.013,0.8222,doped PBTTT
350,736.978,0.8286,doped PBTTT
351,737.942,0.8348,doped PBTTT
352,738.906,0.8407,doped PBTTT
353,739.87,0.8465,doped PBTTT
354,740.835,0.8522,doped PBTTT
355,741.799,0.858,doped PBTTT
356,742.763,0.8639,doped PBTTT
357,743.727,0.8703,doped PBTTT
358,744.691,0.8771,doped PBTTT
359,745.656,0.8842,doped PBTTT
360,746.62,0.891,doped PBTTT
361,747.584,0.8971,doped PBTTT
362,748.548,0.902,doped PBTTT
363,749.513,0.906,doped PBTTT
364,750.477,0.9096,doped PBTTT
365,751.441,0.9137,doped PBTTT
366,752.405,0.9189,doped PBTTT
367,753.37,0.9252,doped PBTTT
368,754.334,0.9318,doped PBTTT
369,755.298,0.9376,doped PBTTT
370,756.262,0.9419,doped PBTTT
371,757.227,0.9445,doped PBTTT
372,758.191,0.9461,doped PBTTT
373,759.155,0.9475,doped PBTTT
374,760.119,0.9495,doped PBTTT
375,761.083,0.952,doped PBTTT
376,762.048,0.9546,doped PBTTT
377,763.012,0.9564,doped PBTTT
378,763.976,0.9569,doped PBTTT
379,764.94,0.9561,doped PBTTT
380,765.905,0.9545,doped PBTTT
381,766.869,0.9527,doped PBTTT
382,767.833,0.9513,doped PBTTT
383,768.797,0.9505,doped PBTTT
384,769.762,0.95,doped PBTTT
385,770.726,0.9497,doped PBTTT
386,771.69,0.9493,doped PBTTT
387,772.654,0.9488,doped PBTTT
388,773.618,0.9478,doped PBTTT
389,774.583,0.9464,doped PBTTT
390,775.547,0.9442,doped PBTTT
391,776.511,0.9411,doped PBTTT
392,777.475,0.9374,doped PBTTT
393,778.44,0.9334,doped PBTTT
394,779.404,0.9297,doped PBTTT
395,780.368,0.9268,doped PBTTT
396,781.332,0.9249,doped PBTTT
397,782.297,0.9234,doped PBTTT
398,783.261,0.9217,doped PBTTT
399,784.225,0.9192,doped PBTTT
400,785.189,0.9155,doped PBTTT
401,786.154,0.9106,doped PBTTT
402,787.118,0.905,doped PBTTT
403,788.082,0.8992,doped PBTTT
404,789.046,0.8936,doped PBTTT
405,790.01,0.8885,doped PBTTT
406,790.975,0.884,doped PBTTT
407,791.939,0.8798,doped PBTTT
408,792.903,0.876,doped PBTTT
409,793.867,0.8722,doped PBTTT
410,794.832,0.8681,doped PBTTT
411,795.796,0.8635,doped PBTTT
412,796.76,0.8584,doped PBTTT
413,797.724,0.853,doped PBTTT
414,798.689,0.8479,doped PBTTT
415,799.653,0.8434,doped PBTTT
416,800.617,0.8396,doped PBTTT
417,801.581,0.8364,doped PBTTT
418,802.545,0.8332,doped PBTTT
419,803.51,0.8297,doped PBTTT
420,804.474,0.8258,doped PBTTT
421,805.438,0.8217,doped PBTTT
422,806.402,0.8177,doped PBTTT
423,807.367,0.814,doped PBTTT
424,808.331,0.8105,doped PBTTT
425,809.295,0.8072,doped PBTTT
426,810.259,0.8041,doped PBTTT
427,811.224,0.8011,doped PBTTT
428,812.188,0.7987,doped PBTTT
429,813.152,0.7968,doped PBTTT
430,814.116,0.7956,doped PBTTT
431,815.081,0.795,doped PBTTT
432,816.045,0.7948,doped PBTTT
433,817.009,0.7952,doped PBTTT
434,817.973,0.7961,doped PBTTT
435,818.937,0.7976,doped PBTTT
436,819.902,0.7999,doped PBTTT
437,820.866,0.8026,doped PBTTT
438,821.83,0.8052,doped PBTTT
439,822.794,0.8074,doped PBTTT
440,823.759,0.8086,doped PBTTT
441,824.723,0.8088,doped PBTTT
442,825.687,0.8082,doped PBTTT
443,826.651,0.8071,doped PBTTT
444,827.616,0.8059,doped PBTTT
445,828.58,0.8047,doped PBTTT
446,829.544,0.8036,doped PBTTT
447,830.508,0.8025,doped PBTTT
448,831.472,0.8016,doped PBTTT
449,832.437,0.8009,doped PBTTT
450,833.401,0.8007,doped PBTTT
451,834.365,0.8012,doped PBTTT
452,835.329,0.8027,doped PBTTT
453,836.294,0.8053,doped PBTTT
454,837.258,0.809,doped PBTTT
455,838.222,0.8138,doped PBTTT
456,839.186,0.8197,doped PBTTT
457,840.151,0.8266,doped PBTTT
458,841.115,0.8349,doped PBTTT
459,842.079,0.8445,doped PBTTT
460,843.043,0.8554,doped PBTTT
461,844.008,0.867,doped PBTTT
462,844.972,0.8792,doped PBTTT
463,845.936,0.8917,doped PBTTT
464,846.9,0.9046,doped PBTTT
465,847.864,0.9185,doped PBTTT
466,848.829,0.9336,doped PBTTT
467,849.793,0.9501,doped PBTTT
468,850.757,0.968,doped PBTTT
469,851.721,0.9868,doped PBTTT
470,852.686,1.006,doped PBTTT
471,853.65,1.026,doped PBTTT
472,854.614,1.047,doped PBTTT
473,855.578,1.067,doped PBTTT
474,856.543,1.088,doped PBTTT
475,857.507,1.109,doped PBTTT
476,858.471,1.13,doped PBTTT
477,859.435,1.151,doped PBTTT
478,860.399,1.173,doped PBTTT
479,861.364,1.197,doped PBTTT
480,862.328,1.221,doped PBTTT
481,863.292,1.246,doped PBTTT
482,864.256,1.271,doped PBTTT
483,865.221,1.296,doped PBTTT
484,866.185,1.32,doped PBTTT
485,867.149,1.344,doped PBTTT
486,868.113,1.367,doped PBTTT
487,869.078,1.39,doped PBTTT
488,870.042,1.411,doped PBTTT
489,871.006,1.432,doped PBTTT
490,871.97,1.452,doped PBTTT
491,872.935,1.473,doped PBTTT
492,873.899,1.497,doped PBTTT
493,874.863,1.522,doped PBTTT
494,875.827,1.547,doped PBTTT
495,876.791,1.572,doped PBTTT
496,877.756,1.596,doped PBTTT
497,878.72,1.619,doped PBTTT
498,879.684,1.643,doped PBTTT
499,880.648,1.669,doped PBTTT
500,881.613,1.696,doped PBTTT
501,882.577,1.722,doped PBTTT
502,883.541,1.745,doped PBTTT
503,884.505,1.763,doped PBTTT
504,885.47,1.78,doped PBTTT
505,886.434,1.797,doped PBTTT
506,887.398,1.816,doped PBTTT
507,888.362,1.837,doped PBTTT
508,889.326,1.857,doped PBTTT
509,890.291,1.876,doped PBTTT
510,891.255,1.894,doped PBTTT
511,892.219,1.912,doped PBTTT
512,893.183,1.931,doped PBTTT
513,894.148,1.95,doped PBTTT
514,895.112,1.966,doped PBTTT
515,896.076,1.975,doped PBTTT
516,897.04,1.974,doped PBTTT
517,898.005,1.965,doped PBTTT
518,898.969,1.953,doped PBTTT
519,899.933,1.941,doped PBTTT
520,900.897,1.935,doped PBTTT
521,901.862,1.934,doped PBTTT
522,902.826,1.936,doped PBTTT
523,903.79,1.94,doped PBTTT
524,904.754,1.94,doped PBTTT
525,905.718,1.936,doped PBTTT
526,906.683,1.924,doped PBTTT
527,907.647,1.909,doped PBTTT
528,908.611,1.893,doped PBTTT
529,909.575,1.879,doped PBTTT
530,910.54,1.872,doped PBTTT
531,911.504,1.869,doped PBTTT
532,912.468,1.868,doped PBTTT
533,913.432,1.866,doped PBTTT
534,914.397,1.858,doped PBTTT
535,915.361,1.844,doped PBTTT
536,916.325,1.825,doped PBTTT
537,917.289,1.803,doped PBTTT
538,918.253,1.779,doped PBTTT
539,919.218,1.756,doped PBTTT
540,920.182,1.734,doped PBTTT
541,921.146,1.715,doped PBTTT
542,922.11,1.698,doped PBTTT
543,923.075,1.685,doped PBTTT
544,924.039,1.673,doped PBTTT
545,925.003,1.664,doped PBTTT
546,925.967,1.654,doped PBTTT
547,926.932,1.644,doped PBTTT
548,927.896,1.633,doped PBTTT
549,928.86,1.62,doped PBTTT
550,929.824,1.608,doped PBTTT
551,930.789,1.595,doped PBTTT
552,931.753,1.583,doped PBTTT
553,932.717,1.571,doped PBTTT
554,933.681,1.56,doped PBTTT
555,934.645,1.55,doped PBTTT
556,935.61,1.54,doped PBTTT
557,936.574,1.529,doped PBTTT
558,937.538,1.518,doped PBTTT
559,938.502,1.506,doped PBTTT
560,939.467,1.494,doped PBTTT
561,940.431,1.483,doped PBTTT
562,941.395,1.472,doped PBTTT
563,942.359,1.462,doped PBTTT
564,943.324,1.453,doped PBTTT
565,944.288,1.444,doped PBTTT
566,945.252,1.433,doped PBTTT
567,946.216,1.421,doped PBTTT
568,947.18,1.408,doped PBTTT
569,948.145,1.395,doped PBTTT
570,949.109,1.384,doped PBTTT
571,950.073,1.375,doped PBTTT
572,951.037,1.368,doped PBTTT
573,952.002,1.362,doped PBTTT
574,952.966,1.357,doped PBTTT
575,953.93,1.35,doped PBTTT
576,954.894,1.343,doped PBTTT
577,955.859,1.334,doped PBTTT
578,956.823,1.324,doped PBTTT
579,957.787,1.314,doped PBTTT
580,958.751,1.305,doped PBTTT
581,959.716,1.297,doped PBTTT
582,960.68,1.288,doped PBTTT
583,961.644,1.28,doped PBTTT
584,962.608,1.271,doped PBTTT
585,963.572,1.263,doped PBTTT
586,964.537,1.255,doped PBTTT
587,965.501,1.247,doped PBTTT
588,966.465,1.239,doped PBTTT
589,967.429,1.229,doped PBTTT
590,968.394,1.218,doped PBTTT
591,969.358,1.206,doped PBTTT
592,970.322,1.194,doped PBTTT
593,971.286,1.183,doped PBTTT
594,972.251,1.173,doped PBTTT
595,973.215,1.164,doped PBTTT
596,974.179,1.156,doped PBTTT
597,975.143,1.148,doped PBTTT
598,976.107,1.14,doped PBTTT
599,977.072,1.132,doped PBTTT
600,978.036,1.125,doped PBTTT
601,979.0,1.119,doped PBTTT
602,979.964,1.113,doped PBTTT
603,980.929,1.107,doped PBTTT
604,981.893,1.101,doped PBTTT
605,982.857,1.094,doped PBTTT
606,983.821,1.088,doped PBTTT
607,984.786,1.08,doped PBTTT
608,985.75,1.073,doped PBTTT
609,986.714,1.066,doped PBTTT
610,987.678,1.059,doped PBTTT
611,988.643,1.053,doped PBTTT
612,989.607,1.048,doped PBTTT
613,990.571,1.043,doped PBTTT
614,991.535,1.038,doped PBTTT
615,992.499,1.033,doped PBTTT
616,993.464,1.029,doped PBTTT
617,994.428,1.024,doped PBTTT
618,995.392,1.019,doped PBTTT
619,996.356,1.013,doped PBTTT
620,997.321,1.006,doped PBTTT
621,998.285,1.0,doped PBTTT
622,999.249,0.9948,doped PBTTT
623,1000.21,0.9895,doped PBTTT
624,1001.178,0.9843,doped PBTTT
625,1002.14,0.9786,doped PBTTT
626,1003.11,0.9722,doped PBTTT
627,1004.07,0.9653,doped PBTTT
628,1005.035,0.9581,doped PBTTT
629,1006,0.9511,doped PBTTT
630,1006.96,0.9447,doped PBTTT
631,1007.927,0.9391,doped PBTTT
632,1008.89,0.9342,doped PBTTT
633,1009.86,0.9298,doped PBTTT
634,1010.82,0.9258,doped PBTTT
635,1011.784,0.9218,doped PBTTT
636,1012.748,0.9178,doped PBTTT
637,1013.71,0.9134,doped PBTTT
638,1014.677,0.9087,doped PBTTT
639,1015.64,0.9036,doped PBTTT
640,1016.605,0.8984,doped PBTTT
641,1017.57,0.8931,doped PBTTT
642,1018.534,0.8882,doped PBTTT
643,1019.498,0.8836,doped PBTTT
644,1020.462,0.8795,doped PBTTT
645,1021.426,0.8759,doped PBTTT
646,1022.39,0.8726,doped PBTTT
647,1023.355,0.8695,doped PBTTT
648,1024.319,0.8662,doped PBTTT
649,1025.28,0.8624,doped PBTTT
650,1026.248,0.858,doped PBTTT
651,1027.212,0.8528,doped PBTTT
652,1028.18,0.8472,doped PBTTT
653,1029.14,0.8414,doped PBTTT
654,1030.105,0.8357,doped PBTTT
655,1031.069,0.8304,doped PBTTT
656,1032.03,0.8252,doped PBTTT
657,1032.997,0.8202,doped PBTTT
658,1033.962,0.815,doped PBTTT
659,1034.93,0.8097,doped PBTTT
660,1035.89,0.8042,doped PBTTT
661,1036.854,0.7987,doped PBTTT
662,1037.818,0.7932,doped PBTTT
663,1038.78,0.7876,doped PBTTT
664,1039.747,0.7821,doped PBTTT
665,1040.711,0.7764,doped PBTTT
666,1041.675,0.7707,doped PBTTT
667,1042.64,0.765,doped PBTTT
668,1043.604,0.7593,doped PBTTT
669,1044.568,0.7536,doped PBTTT
670,1045.532,0.748,doped PBTTT
671,1046.497,0.7426,doped PBTTT
672,1047.461,0.7371,doped PBTTT
673,1048.425,0.7318,doped PBTTT
674,1049.389,0.7265,doped PBTTT
675,1050.353,0.7212,doped PBTTT
676,1051.318,0.7162,doped PBTTT
677,1052.282,0.7112,doped PBTTT
678,1053.246,0.7064,doped PBTTT
679,1054.21,0.7017,doped PBTTT
680,1055.175,0.6972,doped PBTTT
681,1056.139,0.6929,doped PBTTT
682,1057.103,0.6887,doped PBTTT
683,1058.067,0.6848,doped PBTTT
684,1059.032,0.6809,doped PBTTT
685,1059.996,0.6772,doped PBTTT
686,1060.96,0.6735,doped PBTTT
687,1061.924,0.6698,doped PBTTT
688,1062.889,0.6661,doped PBTTT
689,1063.853,0.6624,doped PBTTT
690,1064.817,0.6589,doped PBTTT
691,1065.781,0.6554,doped PBTTT
692,1066.745,0.6519,doped PBTTT
693,1067.71,0.6484,doped PBTTT
694,1068.674,0.6449,doped PBTTT
695,1069.638,0.6413,doped PBTTT
696,1070.6,0.6376,doped PBTTT
697,1071.567,0.634,doped PBTTT
698,1072.531,0.6305,doped PBTTT
699,1073.495,0.6271,doped PBTTT
700,1074.46,0.6241,doped PBTTT
701,1075.424,0.6213,doped PBTTT
702,1076.388,0.6185,doped PBTTT
703,1077.35,0.6157,doped PBTTT
704,1078.316,0.6127,doped PBTTT
705,1079.28,0.6096,doped PBTTT
706,1080.245,0.6063,doped PBTTT
707,1081.21,0.603,doped PBTTT
708,1082.173,0.5995,doped PBTTT
709,1083.137,0.5959,doped PBTTT
710,1084.1,0.592,doped PBTTT
711,1085.066,0.5877,doped PBTTT
712,1086.03,0.583,doped PBTTT
713,1086.994,0.5782,doped PBTTT
714,1087.96,0.5733,doped PBTTT
715,1088.923,0.5686,doped PBTTT
716,1089.887,0.564,doped PBTTT
717,1090.851,0.5596,doped PBTTT
718,1091.816,0.5556,doped PBTTT
719,1092.78,0.552,doped PBTTT
720,1093.744,0.5489,doped PBTTT
721,1094.708,0.5463,doped PBTTT
722,1095.672,0.5443,doped PBTTT
723,1096.637,0.543,doped PBTTT
724,1097.601,0.5422,doped PBTTT
725,1098.565,0.5421,doped PBTTT
726,1099.529,0.5426,doped PBTTT
727,1100.494,0.5435,doped PBTTT
728,1101.458,0.5448,doped PBTTT
729,1102.422,0.5462,doped PBTTT
730,1103.386,0.5474,doped PBTTT
731,1104.351,0.5484,doped PBTTT
732,1105.315,0.5491,doped PBTTT
733,1106.279,0.5495,doped PBTTT
734,1107.243,0.5497,doped PBTTT
735,1108.21,0.5498,doped PBTTT
736,1109.172,0.5497,doped PBTTT
737,1110.136,0.5494,doped PBTTT
738,1111.1,0.5488,doped PBTTT
739,1112.06,0.5478,doped PBTTT
740,1113.029,0.5465,doped PBTTT
741,1113.993,0.5449,doped PBTTT
742,1114.96,0.5432,doped PBTTT
743,1115.921,0.5419,doped PBTTT
744,1116.886,0.5409,doped PBTTT
745,1117.85,0.5404,doped PBTTT
746,1118.81,0.5403,doped PBTTT
747,1119.778,0.5404,doped PBTTT
748,1120.743,0.5405,doped PBTTT
749,1121.71,0.5406,doped PBTTT
750,1122.671,0.5405,doped PBTTT
751,1123.635,0.5404,doped PBTTT
752,1124.599,0.5404,doped PBTTT
753,1125.56,0.5405,doped PBTTT
754,1126.528,0.5409,doped PBTTT
755,1127.492,0.5415,doped PBTTT
756,1128.46,0.5423,doped PBTTT
757,1129.421,0.543,doped PBTTT
758,1130.385,0.5437,doped PBTTT
759,1131.349,0.5443,doped PBTTT
760,1132.313,0.5449,doped PBTTT
761,1133.278,0.5456,doped PBTTT
762,1134.242,0.5466,doped PBTTT
763,1135.21,0.5478,doped PBTTT
764,1136.17,0.5493,doped PBTTT
765,1137.134,0.5511,doped PBTTT
766,1138.099,0.5532,doped PBTTT
767,1139.063,0.5555,doped PBTTT
768,1140.027,0.5577,doped PBTTT
769,1140.991,0.5596,doped PBTTT
770,1141.96,0.5604,doped PBTTT
771,1142.92,0.5599,doped PBTTT
772,1143.884,0.558,doped PBTTT
773,1144.848,0.5548,doped PBTTT
774,1145.813,0.5511,doped PBTTT
775,1146.777,0.5474,doped PBTTT
776,1147.741,0.5442,doped PBTTT
777,1148.705,0.5415,doped PBTTT
778,1149.67,0.5393,doped PBTTT
779,1150.634,0.5372,doped PBTTT
780,1151.598,0.5349,doped PBTTT
781,1152.562,0.5325,doped PBTTT
782,1153.526,0.5297,doped PBTTT
783,1154.491,0.5267,doped PBTTT
784,1155.455,0.5235,doped PBTTT
785,1156.42,0.5201,doped PBTTT
786,1157.383,0.5165,doped PBTTT
787,1158.348,0.5129,doped PBTTT
788,1159.312,0.5092,doped PBTTT
789,1160.276,0.5055,doped PBTTT
790,1161.24,0.5018,doped PBTTT
791,1162.205,0.498,doped PBTTT
792,1163.17,0.4941,doped PBTTT
793,1164.133,0.49,doped PBTTT
794,1165.097,0.4856,doped PBTTT
795,1166.06,0.4813,doped PBTTT
796,1167.026,0.477,doped PBTTT
797,1167.99,0.473,doped PBTTT
798,1168.954,0.4693,doped PBTTT
799,1169.92,0.466,doped PBTTT
800,1170.883,0.463,doped PBTTT
801,1171.847,0.4604,doped PBTTT
802,1172.81,0.4581,doped PBTTT
803,1173.775,0.4562,doped PBTTT
804,1174.74,0.4545,doped PBTTT
805,1175.704,0.453,doped PBTTT
806,1176.67,0.4516,doped PBTTT
807,1177.632,0.4503,doped PBTTT
808,1178.597,0.4489,doped PBTTT
809,1179.56,0.4477,doped PBTTT
810,1180.525,0.4465,doped PBTTT
811,1181.489,0.4454,doped PBTTT
812,1182.453,0.4444,doped PBTTT
813,1183.42,0.4434,doped PBTTT
814,1184.382,0.4423,doped PBTTT
815,1185.346,0.4413,doped PBTTT
816,1186.31,0.4402,doped PBTTT
817,1187.275,0.4392,doped PBTTT
818,1188.239,0.4382,doped PBTTT
819,1189.203,0.4372,doped PBTTT
820,1190.167,0.4361,doped PBTTT
821,1191.132,0.4351,doped PBTTT
822,1192.096,0.4338,doped PBTTT
823,1193.06,0.4324,doped PBTTT
824,1194.024,0.4307,doped PBTTT
825,1194.988,0.4285,doped PBTTT
826,1195.953,0.4259,doped PBTTT
827,1196.917,0.4227,doped PBTTT
828,1197.881,0.419,doped PBTTT
829,1198.845,0.415,doped PBTTT
830,1199.81,0.4107,doped PBTTT
831,1200.774,0.4063,doped PBTTT
832,1201.738,0.4019,doped PBTTT
833,1202.702,0.3973,doped PBTTT
834,1203.667,0.3927,doped PBTTT
835,1204.631,0.3879,doped PBTTT
836,1205.595,0.383,doped PBTTT
837,1206.559,0.3779,doped PBTTT
838,1207.524,0.3727,doped PBTTT
839,1208.488,0.3673,doped PBTTT
840,1209.452,0.362,doped PBTTT
841,1210.42,0.3566,doped PBTTT
842,1211.38,0.3513,doped PBTTT
843,1212.345,0.346,doped PBTTT
844,1213.309,0.341,doped PBTTT
845,1214.27,0.3362,doped PBTTT
846,1215.237,0.3318,doped PBTTT
847,1216.202,0.3278,doped PBTTT
848,1217.17,0.3242,doped PBTTT
849,1218.13,0.3211,doped PBTTT
850,1219.094,0.3182,doped PBTTT
851,1220.059,0.3157,doped PBTTT
852,1221.02,0.3133,doped PBTTT
853,1221.987,0.3111,doped PBTTT
854,1222.951,0.3088,doped PBTTT
855,1223.92,0.3065,doped PBTTT
856,1224.88,0.3041,doped PBTTT
857,1225.844,0.3016,doped PBTTT
858,1226.808,0.2989,doped PBTTT
859,1227.772,0.2963,doped PBTTT
860,1228.737,0.2937,doped PBTTT
861,1229.701,0.2914,doped PBTTT
862,1230.665,0.2894,doped PBTTT
863,1231.629,0.2878,doped PBTTT
864,1232.594,0.2866,doped PBTTT
865,1233.558,0.2858,doped PBTTT
866,1234.522,0.2855,doped PBTTT
867,1235.486,0.2855,doped PBTTT
868,1236.451,0.2859,doped PBTTT
869,1237.415,0.2866,doped PBTTT
870,1238.379,0.2876,doped PBTTT
871,1239.343,0.2889,doped PBTTT
872,1240.307,0.2903,doped PBTTT
873,1241.272,0.2918,doped PBTTT
874,1242.236,0.2932,doped PBTTT
875,1243.2,0.2946,doped PBTTT
876,1244.164,0.2959,doped PBTTT
877,1245.129,0.297,doped PBTTT
878,1246.093,0.2982,doped PBTTT
879,1247.057,0.2994,doped PBTTT
880,1248.021,0.3007,doped PBTTT
881,1248.986,0.3024,doped PBTTT
882,1249.95,0.3043,doped PBTTT
883,1250.914,0.3064,doped PBTTT
884,1251.878,0.3087,doped PBTTT
885,1252.843,0.311,doped PBTTT
886,1253.807,0.3133,doped PBTTT
887,1254.771,0.3156,doped PBTTT
888,1255.735,0.3178,doped PBTTT
889,1256.7,0.3201,doped PBTTT
890,1257.664,0.3226,doped PBTTT
891,1258.628,0.3255,doped PBTTT
892,1259.59,0.3288,doped PBTTT
893,1260.556,0.3326,doped PBTTT
894,1261.521,0.3366,doped PBTTT
895,1262.485,0.3405,doped PBTTT
896,1263.45,0.3441,doped PBTTT
897,1264.413,0.347,doped PBTTT
898,1265.378,0.349,doped PBTTT
899,1266.34,0.3502,doped PBTTT
900,1267.306,0.3506,doped PBTTT
901,1268.27,0.3504,doped PBTTT
902,1269.234,0.3499,doped PBTTT
903,1270.2,0.3492,doped PBTTT
904,1271.163,0.3484,doped PBTTT
905,1272.127,0.3476,doped PBTTT
906,1273.09,0.3469,doped PBTTT
907,1274.056,0.3461,doped PBTTT
908,1275.02,0.3454,doped PBTTT
909,1275.984,0.3448,doped PBTTT
910,1276.948,0.3445,doped PBTTT
911,1277.913,0.3448,doped PBTTT
912,1278.877,0.3458,doped PBTTT
913,1279.84,0.3477,doped PBTTT
914,1280.805,0.3506,doped PBTTT
915,1281.77,0.3543,doped PBTTT
916,1282.734,0.3588,doped PBTTT
917,1283.698,0.3639,doped PBTTT
918,1284.662,0.3692,doped PBTTT
919,1285.626,0.3746,doped PBTTT
920,1286.59,0.3799,doped PBTTT
921,1287.555,0.3849,doped PBTTT
922,1288.519,0.3895,doped PBTTT
923,1289.483,0.3936,doped PBTTT
924,1290.448,0.3971,doped PBTTT
925,1291.412,0.4001,doped PBTTT
926,1292.376,0.4027,doped PBTTT
927,1293.34,0.4049,doped PBTTT
928,1294.305,0.4069,doped PBTTT
929,1295.269,0.4088,doped PBTTT
930,1296.233,0.4105,doped PBTTT
931,1297.197,0.412,doped PBTTT
932,1298.161,0.4133,doped PBTTT
933,1299.126,0.4143,doped PBTTT
934,1300.09,0.415,doped PBTTT
935,1301.05,0.4153,doped PBTTT
936,1302.018,0.4156,doped PBTTT
937,1302.983,0.4158,doped PBTTT
938,1303.947,0.4161,doped PBTTT
939,1304.911,0.4165,doped PBTTT
940,1305.875,0.4172,doped PBTTT
941,1306.84,0.4179,doped PBTTT
942,1307.8,0.4186,doped PBTTT
943,1308.768,0.4193,doped PBTTT
944,1309.732,0.4199,doped PBTTT
945,1310.697,0.4205,doped PBTTT
946,1311.661,0.4211,doped PBTTT
947,1312.625,0.4217,doped PBTTT
948,1313.589,0.4223,doped PBTTT
949,1314.55,0.423,doped PBTTT
950,1315.52,0.4236,doped PBTTT
951,1316.48,0.4243,doped PBTTT
952,1317.45,0.4249,doped PBTTT
953,1318.41,0.4254,doped PBTTT
954,1319.375,0.4258,doped PBTTT
955,1320.339,0.4261,doped PBTTT
956,1321.3,0.4265,doped PBTTT
957,1322.267,0.4267,doped PBTTT
958,1323.23,0.4271,doped PBTTT
959,1324.2,0.4274,doped PBTTT
960,1325.16,0.4279,doped PBTTT
961,1326.124,0.4285,doped PBTTT
962,1327.088,0.4295,doped PBTTT
963,1328.05,0.4307,doped PBTTT
964,1329.017,0.4325,doped PBTTT
965,1329.981,0.4347,doped PBTTT
966,1330.945,0.4374,doped PBTTT
967,1331.91,0.4406,doped PBTTT
968,1332.874,0.4443,doped PBTTT
969,1333.838,0.4482,doped PBTTT
970,1334.8,0.4524,doped PBTTT
971,1335.767,0.4564,doped PBTTT
972,1336.731,0.4599,doped PBTTT
973,1337.695,0.4624,doped PBTTT
974,1338.66,0.4633,doped PBTTT
975,1339.624,0.4626,doped PBTTT
976,1340.588,0.4604,doped PBTTT
977,1341.55,0.4573,doped PBTTT
978,1342.516,0.4537,doped PBTTT
979,1343.48,0.4501,doped PBTTT
980,1344.445,0.4467,doped PBTTT
981,1345.41,0.4437,doped PBTTT
982,1346.37,0.4411,doped PBTTT
983,1347.34,0.4388,doped PBTTT
984,1348.3,0.4367,doped PBTTT
985,1349.266,0.4348,doped PBTTT
986,1350.23,0.433,doped PBTTT
987,1351.194,0.4311,doped PBTTT
988,1352.16,0.4292,doped PBTTT
989,1353.12,0.4272,doped PBTTT
990,1354.09,0.4253,doped PBTTT
991,1355.05,0.4234,doped PBTTT
992,1356.015,0.4216,doped PBTTT
993,1356.98,0.42,doped PBTTT
994,1357.944,0.4185,doped PBTTT
995,1358.908,0.4173,doped PBTTT
996,1359.872,0.4162,doped PBTTT
997,1360.84,0.4152,doped PBTTT
998,1361.8,0.4145,doped PBTTT
999,1362.765,0.4139,doped PBTTT
1000,1363.729,0.4135,doped PBTTT
1001,1364.694,0.4131,doped PBTTT
1002,1365.658,0.4126,doped PBTTT
1003,1366.622,0.4119,doped PBTTT
1004,1367.586,0.4111,doped PBTTT
1005,1368.55,0.4101,doped PBTTT
1006,1369.515,0.4091,doped PBTTT
1007,1370.479,0.4079,doped PBTTT
1008,1371.443,0.4066,doped PBTTT
1009,1372.41,0.4051,doped PBTTT
1010,1373.372,0.4034,doped PBTTT
1011,1374.336,0.4015,doped PBTTT
1012,1375.3,0.3994,doped PBTTT
1013,1376.264,0.3972,doped PBTTT
1014,1377.229,0.3947,doped PBTTT
1015,1378.193,0.3922,doped PBTTT
1016,1379.16,0.3896,doped PBTTT
1017,1380.121,0.3873,doped PBTTT
1018,1381.086,0.3855,doped PBTTT
1019,1382.05,0.3844,doped PBTTT
1020,1383.014,0.3842,doped PBTTT
1021,1383.98,0.3849,doped PBTTT
1022,1384.942,0.3866,doped PBTTT
1023,1385.91,0.3894,doped PBTTT
1024,1386.871,0.393,doped PBTTT
1025,1387.835,0.3972,doped PBTTT
1026,1388.799,0.4013,doped PBTTT
1027,1389.764,0.4048,doped PBTTT
1028,1390.73,0.4076,doped PBTTT
1029,1391.692,0.4096,doped PBTTT
1030,1392.656,0.411,doped PBTTT
1031,1393.621,0.412,doped PBTTT
1032,1394.585,0.4125,doped PBTTT
1033,1395.549,0.4124,doped PBTTT
1034,1396.513,0.4118,doped PBTTT
1035,1397.48,0.4106,doped PBTTT
1036,1398.442,0.4088,doped PBTTT
1037,1399.406,0.4065,doped PBTTT
1038,1400.37,0.4038,doped PBTTT
1039,1401.33,0.4007,doped PBTTT
1040,1402.299,0.3971,doped PBTTT
1041,1403.263,0.3929,doped PBTTT
1042,1404.227,0.3881,doped PBTTT
1043,1405.191,0.3828,doped PBTTT
1044,1406.156,0.3773,doped PBTTT
1045,1407.12,0.3718,doped PBTTT
1046,1408.08,0.3664,doped PBTTT
1047,1409.05,0.361,doped PBTTT
1048,1410.013,0.3555,doped PBTTT
1049,1410.977,0.35,doped PBTTT
1050,1411.941,0.3445,doped PBTTT
1051,1412.905,0.3394,doped PBTTT
1052,1413.869,0.3348,doped PBTTT
1053,1414.83,0.3306,doped PBTTT
1054,1415.8,0.3265,doped PBTTT
1055,1416.76,0.3223,doped PBTTT
1056,1417.726,0.3177,doped PBTTT
1057,1418.691,0.3132,doped PBTTT
1058,1419.655,0.3092,doped PBTTT
1059,1420.619,0.3058,doped PBTTT
1060,1421.58,0.3029,doped PBTTT
1061,1422.55,0.3003,doped PBTTT
1062,1423.51,0.2977,doped PBTTT
1063,1424.476,0.2951,doped PBTTT
1064,1425.44,0.2926,doped PBTTT
1065,1426.405,0.2901,doped PBTTT
1066,1427.369,0.2878,doped PBTTT
1067,1428.33,0.2856,doped PBTTT
1068,1429.297,0.2833,doped PBTTT
1069,1430.261,0.2811,doped PBTTT
1070,1431.226,0.2791,doped PBTTT
1071,1432.19,0.2773,doped PBTTT
1072,1433.154,0.2756,doped PBTTT
1073,1434.118,0.2737,doped PBTTT
1074,1435.08,0.2715,doped PBTTT
1075,1436.047,0.269,doped PBTTT
1076,1437.011,0.2664,doped PBTTT
1077,1437.975,0.264,doped PBTTT
1078,1438.94,0.2621,doped PBTTT
1079,1439.904,0.2605,doped PBTTT
1080,1440.868,0.2589,doped PBTTT
1081,1441.832,0.2573,doped PBTTT
1082,1442.796,0.2556,doped PBTTT
1083,1443.761,0.2539,doped PBTTT
1084,1444.725,0.2522,doped PBTTT
1085,1445.69,0.2508,doped PBTTT
1086,1446.65,0.2495,doped PBTTT
1087,1447.618,0.2486,doped PBTTT
1088,1448.582,0.2481,doped PBTTT
1089,1449.546,0.248,doped PBTTT
1090,1450.51,0.2483,doped PBTTT
1091,1451.475,0.2489,doped PBTTT
1092,1452.44,0.2494,doped PBTTT
1093,1453.4,0.2498,doped PBTTT
1094,1454.37,0.25,doped PBTTT
1095,1455.332,0.25,doped PBTTT
1096,1456.296,0.25,doped PBTTT
1097,1457.26,0.2502,doped PBTTT
1098,1458.224,0.2508,doped PBTTT
1099,1459.19,0.2516,doped PBTTT
1100,1460.15,0.2523,doped PBTTT
1101,1461.12,0.2529,doped PBTTT
1102,1462.08,0.2532,doped PBTTT
1103,1463.045,0.2533,doped PBTTT
1104,1464.01,0.253,doped PBTTT
1105,1464.974,0.2522,doped PBTTT
1106,1465.94,0.2508,doped PBTTT
1107,1466.902,0.2489,doped PBTTT
1108,1467.87,0.2466,doped PBTTT
1109,1468.83,0.2439,doped PBTTT
1110,1469.795,0.2407,doped PBTTT
1111,1470.759,0.237,doped PBTTT
1112,1471.724,0.2334,doped PBTTT
1113,1472.69,0.2305,doped PBTTT
1114,1473.652,0.229,doped PBTTT
1115,1474.616,0.229,doped PBTTT
1116,1475.58,0.2301,doped PBTTT
1117,1476.545,0.2319,doped PBTTT
1118,1477.509,0.234,doped PBTTT
1119,1478.473,0.2363,doped PBTTT
1120,1479.44,0.239,doped PBTTT
1121,1480.402,0.242,doped PBTTT
1122,1481.366,0.2453,doped PBTTT
1123,1482.33,0.2488,doped PBTTT
1124,1483.29,0.2523,doped PBTTT
1125,1484.259,0.2554,doped PBTTT
1126,1485.223,0.2581,doped PBTTT
1127,1486.19,0.2603,doped PBTTT
1128,1487.151,0.2619,doped PBTTT
1129,1488.115,0.2631,doped PBTTT
1130,1489.08,0.2641,doped PBTTT
1131,1490.04,0.2651,doped PBTTT
1132,1491.01,0.2664,doped PBTTT
1133,1491.97,0.2679,doped PBTTT
1134,1492.94,0.2698,doped PBTTT
1135,1493.901,0.2719,doped PBTTT
1136,1494.865,0.2743,doped PBTTT
1137,1495.829,0.2768,doped PBTTT
1138,1496.79,0.2788,doped PBTTT
1139,1497.76,0.2798,doped PBTTT
1140,1498.72,0.2791,doped PBTTT
1141,1499.69,0.2772,doped PBTTT
1142,1500.651,0.2745,doped PBTTT
1143,1501.615,0.2715,doped PBTTT
1144,1502.579,0.2684,doped PBTTT
1145,1503.543,0.2653,doped PBTTT
1146,1504.507,0.2618,doped PBTTT
1147,1505.47,0.258,doped PBTTT
1148,1506.44,0.2544,doped PBTTT
1149,1507.4,0.2519,doped PBTTT
1150,1508.364,0.251,doped PBTTT
1151,1509.329,0.2512,doped PBTTT
1152,1510.293,0.2517,doped PBTTT
1153,1511.257,0.2521,doped PBTTT
1154,1512.221,0.2523,doped PBTTT
1155,1513.19,0.2523,doped PBTTT
1156,1514.15,0.2522,doped PBTTT
1157,1515.114,0.2521,doped PBTTT
1158,1516.078,0.2521,doped PBTTT
1159,1517.04,0.2522,doped PBTTT
1160,1518.007,0.2524,doped PBTTT
1161,1518.971,0.2528,doped PBTTT
1162,1519.935,0.2533,doped PBTTT
1163,1520.899,0.254,doped PBTTT
1164,1521.864,0.255,doped PBTTT
1165,1522.828,0.2562,doped PBTTT
1166,1523.79,0.2577,doped PBTTT
1167,1524.756,0.2595,doped PBTTT
1168,1525.721,0.2619,doped PBTTT
1169,1526.685,0.2648,doped PBTTT
1170,1527.649,0.2679,doped PBTTT
1171,1528.61,0.271,doped PBTTT
1172,1529.578,0.2736,doped PBTTT
1173,1530.54,0.2756,doped PBTTT
1174,1531.506,0.2768,doped PBTTT
1175,1532.47,0.2771,doped PBTTT
1176,1533.434,0.2766,doped PBTTT
1177,1534.399,0.2754,doped PBTTT
1178,1535.36,0.2739,doped PBTTT
1179,1536.33,0.2722,doped PBTTT
1180,1537.29,0.2702,doped PBTTT
1181,1538.256,0.2677,doped PBTTT
1182,1539.22,0.2648,doped PBTTT
1183,1540.184,0.2618,doped PBTTT
1184,1541.148,0.2596,doped PBTTT
1185,1542.11,0.2587,doped PBTTT
1186,1543.08,0.2587,doped PBTTT
1187,1544.04,0.2591,doped PBTTT
1188,1545.005,0.2595,doped PBTTT
1189,1545.969,0.2599,doped PBTTT
1190,1546.934,0.2602,doped PBTTT
1191,1547.898,0.2604,doped PBTTT
1192,1548.862,0.2607,doped PBTTT
1193,1549.826,0.2609,doped PBTTT
1194,1550.79,0.2613,doped PBTTT
1195,1551.755,0.2616,doped PBTTT
1196,1552.719,0.2621,doped PBTTT
1197,1553.683,0.2624,doped PBTTT
1198,1554.648,0.2626,doped PBTTT
1199,1555.612,0.2625,doped PBTTT
1200,1556.576,0.2623,doped PBTTT
1201,1557.54,0.2623,doped PBTTT
1202,1558.505,0.263,doped PBTTT
1203,1559.469,0.2644,doped PBTTT
1204,1560.433,0.266,doped PBTTT
1205,1561.4,0.2674,doped PBTTT
1206,1562.361,0.2684,doped PBTTT
1207,1563.326,0.2691,doped PBTTT
1208,1564.29,0.2697,doped PBTTT
1209,1565.254,0.27,doped PBTTT
1210,1566.22,0.2703,doped PBTTT
1211,1567.183,0.2704,doped PBTTT
1212,1568.15,0.2706,doped PBTTT
1213,1569.111,0.2709,doped PBTTT
1214,1570.075,0.2714,doped PBTTT
1215,1571.04,0.2718,doped PBTTT
1216,1572.004,0.2721,doped PBTTT
1217,1572.97,0.2721,doped PBTTT
1218,1573.932,0.272,doped PBTTT
1219,1574.896,0.2717,doped PBTTT
1220,1575.861,0.2715,doped PBTTT
1221,1576.825,0.2717,doped PBTTT
1222,1577.789,0.2722,doped PBTTT
1223,1578.753,0.2729,doped PBTTT
1224,1579.72,0.2736,doped PBTTT
1225,1580.682,0.2743,doped PBTTT
1226,1581.646,0.2749,doped PBTTT
1227,1582.61,0.2754,doped PBTTT
1228,1583.575,0.276,doped PBTTT
1229,1584.539,0.2766,doped PBTTT
1230,1585.503,0.2772,doped PBTTT
1231,1586.467,0.2777,doped PBTTT
1232,1587.432,0.2783,doped PBTTT
1233,1588.396,0.279,doped PBTTT
1234,1589.36,0.2796,doped PBTTT
1235,1590.32,0.2803,doped PBTTT
1236,1591.29,0.281,doped PBTTT
1237,1592.253,0.2817,doped PBTTT
1238,1593.217,0.2824,doped PBTTT
1239,1594.181,0.2833,doped PBTTT
1240,1595.145,0.2842,doped PBTTT
1241,1596.11,0.2853,doped PBTTT
1242,1597.07,0.2864,doped PBTTT
1243,1598.04,0.2875,doped PBTTT
1244,1599,0.2886,doped PBTTT
1245,1599.967,0.2897,doped PBTTT
1246,1600.931,0.2908,doped PBTTT
1247,1601.895,0.2919,doped PBTTT
1248,1602.859,0.293,doped PBTTT
1249,1603.82,0.2941,doped PBTTT
1250,1604.79,0.2951,doped PBTTT
1251,1605.75,0.2959,doped PBTTT
1252,1606.72,0.2968,doped PBTTT
1253,1607.68,0.2976,doped PBTTT
1254,1608.645,0.2984,doped PBTTT
1255,1609.609,0.2993,doped PBTTT
1256,1610.57,0.3,doped PBTTT
1257,1611.537,0.3005,doped PBTTT
1258,1612.5,0.3007,doped PBTTT
1259,1613.47,0.3007,doped PBTTT
1260,1614.43,0.3004,doped PBTTT
1261,1615.394,0.3,doped PBTTT
1262,1616.359,0.2997,doped PBTTT
1263,1617.32,0.2995,doped PBTTT
1264,1618.287,0.2996,doped PBTTT
1265,1619.251,0.2997,doped PBTTT
1266,1620.215,0.2998,doped PBTTT
1267,1621.18,0.2999,doped PBTTT
1268,1622.144,0.3,doped PBTTT
1269,1623.108,0.3002,doped PBTTT
1270,1624.07,0.3005,doped PBTTT
1271,1625.037,0.3009,doped PBTTT
1272,1626.001,0.3013,doped PBTTT
1273,1626.965,0.3018,doped PBTTT
1274,1627.93,0.3023,doped PBTTT
1275,1628.894,0.3027,doped PBTTT
1276,1629.858,0.3032,doped PBTTT
1277,1630.82,0.3036,doped PBTTT
1278,1631.786,0.3038,doped PBTTT
1279,1632.75,0.3039,doped PBTTT
1280,1633.715,0.304,doped PBTTT
1281,1634.68,0.3043,doped PBTTT
1282,1635.64,0.305,doped PBTTT
[...]
7391,3666.32,0.03861,neat PBTTT
7392,3667.283,0.0383,neat PBTTT
7393,3668.25,0.03809,neat PBTTT
7394,3669.212,0.03806,neat PBTTT
7395,3670.176,0.03814,neat PBTTT
7396,3671.14,0.03821,neat PBTTT
7397,3672.1,0.03813,neat PBTTT
7398,3673.07,0.03788,neat PBTTT
7399,3674.033,0.03757,neat PBTTT
7400,3675,0.03738,neat PBTTT
7401,3675.961,0.03743,neat PBTTT
7402,3676.925,0.03768,neat PBTTT
7403,3677.89,0.03796,neat PBTTT
7404,3678.85,0.03816,neat PBTTT
7405,3679.82,0.03824,neat PBTTT
7406,3680.782,0.03825,neat PBTTT
7407,3681.75,0.03825,neat PBTTT
7408,3682.711,0.03826,neat PBTTT
7409,3683.675,0.03826,neat PBTTT
7410,3684.639,0.03819,neat PBTTT
7411,3685.6,0.03802,neat PBTTT
7412,3686.57,0.03773,neat PBTTT
7413,3687.532,0.0374,neat PBTTT
7414,3688.5,0.03716,neat PBTTT
7415,3689.46,0.03716,neat PBTTT
7416,3690.425,0.03739,neat PBTTT
7417,3691.389,0.03771,neat PBTTT
7418,3692.353,0.03797,neat PBTTT
7419,3693.317,0.0381,neat PBTTT
7420,3694.282,0.03808,neat PBTTT
7421,3695.25,0.03796,neat PBTTT
7422,3696.21,0.03781,neat PBTTT
7423,3697.17,0.03767,neat PBTTT
7424,3698.139,0.0376,neat PBTTT
7425,3699.103,0.03761,neat PBTTT
7426,3700.067,0.03773,neat PBTTT
7427,3701.031,0.03795,neat PBTTT
7428,3702,0.03821,neat PBTTT
7429,3702.96,0.03844,neat PBTTT
7430,3703.92,0.03855,neat PBTTT
7431,3704.888,0.0385,neat PBTTT
7432,3705.85,0.03825,neat PBTTT
7433,3706.817,0.03784,neat PBTTT
7434,3707.781,0.03732,neat PBTTT
7435,3708.745,0.03679,neat PBTTT
7436,3709.71,0.03643,neat PBTTT
7437,3710.67,0.03639,neat PBTTT
7438,3711.638,0.0367,neat PBTTT
7439,3712.6,0.03721,neat PBTTT
7440,3713.566,0.03774,neat PBTTT
7441,3714.531,0.03814,neat PBTTT
7442,3715.495,0.03839,neat PBTTT
7443,3716.46,0.03848,neat PBTTT
7444,3717.423,0.03842,neat PBTTT
7445,3718.387,0.03824,neat PBTTT
7446,3719.35,0.038,neat PBTTT
7447,3720.316,0.03773,neat PBTTT
7448,3721.28,0.03749,neat PBTTT
7449,3722.244,0.03732,neat PBTTT
7450,3723.21,0.03726,neat PBTTT
7451,3724.173,0.03732,neat PBTTT
7452,3725.137,0.03749,neat PBTTT
7453,3726.1,0.03772,neat PBTTT
7454,3727.066,0.03794,neat PBTTT
7455,3728.03,0.03809,neat PBTTT
7456,3728.994,0.03813,neat PBTTT
7457,3729.958,0.03803,neat PBTTT
7458,3730.923,0.03776,neat PBTTT
7459,3731.887,0.03735,neat PBTTT
7460,3732.85,0.03687,neat PBTTT
7461,3733.815,0.03649,neat PBTTT
7462,3734.78,0.03641,neat PBTTT
7463,3735.744,0.0367,neat PBTTT
7464,3736.708,0.03724,neat PBTTT
7465,3737.672,0.0378,neat PBTTT
7466,3738.636,0.03821,neat PBTTT
7467,3739.6,0.03841,neat PBTTT
7468,3740.565,0.0384,neat PBTTT
7469,3741.53,0.0382,neat PBTTT
7470,3742.493,0.03788,neat PBTTT
7471,3743.458,0.03751,neat PBTTT
7472,3744.422,0.0372,neat PBTTT
7473,3745.386,0.03696,neat PBTTT
7474,3746.35,0.03675,neat PBTTT
7475,3747.31,0.03652,neat PBTTT
7476,3748.28,0.03626,neat PBTTT
7477,3749.243,0.03606,neat PBTTT
7478,3750.21,0.03605,neat PBTTT
7479,3751.171,0.0363,neat PBTTT
7480,3752.136,0.0367,neat PBTTT
7481,3753.1,0.03708,neat PBTTT
7482,3754.06,0.03734,neat PBTTT
7483,3755.028,0.03744,neat PBTTT
7484,3755.993,0.03744,neat PBTTT
7485,3756.96,0.03741,neat PBTTT
7486,3757.921,0.03741,neat PBTTT
7487,3758.885,0.03748,neat PBTTT
7488,3759.85,0.03762,neat PBTTT
7489,3760.81,0.03779,neat PBTTT
7490,3761.778,0.03793,neat PBTTT
7491,3762.742,0.03801,neat PBTTT
7492,3763.71,0.03802,neat PBTTT
7493,3764.671,0.03798,neat PBTTT
7494,3765.635,0.03791,neat PBTTT
7495,3766.599,0.03785,neat PBTTT
7496,3767.563,0.03781,neat PBTTT
7497,3768.528,0.03782,neat PBTTT
7498,3769.492,0.03788,neat PBTTT
7499,3770.46,0.03795,neat PBTTT
7500,3771.42,0.03803,neat PBTTT
7501,3772.385,0.03809,neat PBTTT
7502,3773.349,0.03814,neat PBTTT
7503,3774.313,0.03816,neat PBTTT
7504,3775.277,0.03815,neat PBTTT
7505,3776.242,0.03812,neat PBTTT
7506,3777.21,0.03807,neat PBTTT
7507,3778.17,0.03802,neat PBTTT
7508,3779.134,0.03797,neat PBTTT
7509,3780.098,0.03794,neat PBTTT
7510,3781.063,0.0379,neat PBTTT
7511,3782.027,0.03783,neat PBTTT
7512,3782.991,0.03774,neat PBTTT
7513,3783.955,0.03762,neat PBTTT
7514,3784.92,0.03752,neat PBTTT
7515,3785.884,0.0375,neat PBTTT
7516,3786.848,0.03759,neat PBTTT
7517,3787.812,0.03778,neat PBTTT
7518,3788.777,0.03803,neat PBTTT
7519,3789.741,0.03825,neat PBTTT
7520,3790.705,0.03837,neat PBTTT
7521,3791.67,0.03836,neat PBTTT
7522,3792.633,0.03822,neat PBTTT
7523,3793.598,0.038,neat PBTTT
7524,3794.562,0.03774,neat PBTTT
7525,3795.526,0.03752,neat PBTTT
7526,3796.49,0.03734,neat PBTTT
7527,3797.455,0.0372,neat PBTTT
7528,3798.42,0.03707,neat PBTTT
7529,3799.383,0.03697,neat PBTTT
7530,3800.347,0.03694,neat PBTTT
7531,3801.312,0.03699,neat PBTTT
7532,3802.276,0.03712,neat PBTTT
7533,3803.24,0.03726,neat PBTTT
7534,3804.204,0.03733,neat PBTTT
7535,3805.17,0.03732,neat PBTTT
7536,3806.133,0.03726,neat PBTTT
7537,3807.097,0.03722,neat PBTTT
7538,3808.06,0.03724,neat PBTTT
7539,3809.025,0.03731,neat PBTTT
7540,3809.99,0.03738,neat PBTTT
7541,3810.954,0.0374,neat PBTTT
7542,3811.92,0.03735,neat PBTTT
7543,3812.882,0.03725,neat PBTTT
7544,3813.847,0.03713,neat PBTTT
7545,3814.81,0.03703,neat PBTTT
7546,3815.775,0.03693,neat PBTTT
7547,3816.739,0.0368,neat PBTTT
7548,3817.704,0.03664,neat PBTTT
7549,3818.67,0.03647,neat PBTTT
7550,3819.632,0.03638,neat PBTTT
7551,3820.6,0.03645,neat PBTTT
7552,3821.56,0.03667,neat PBTTT
7553,3822.525,0.03694,neat PBTTT
7554,3823.489,0.03714,neat PBTTT
7555,3824.453,0.03721,neat PBTTT
7556,3825.417,0.03714,neat PBTTT
7557,3826.382,0.03699,neat PBTTT
7558,3827.35,0.03681,neat PBTTT
7559,3828.31,0.03665,neat PBTTT
7560,3829.27,0.03656,neat PBTTT
7561,3830.239,0.03655,neat PBTTT
7562,3831.203,0.03663,neat PBTTT
7563,3832.167,0.03676,neat PBTTT
7564,3833.131,0.03692,neat PBTTT
7565,3834.1,0.03705,neat PBTTT
7566,3835.06,0.0371,neat PBTTT
7567,3836.02,0.03703,neat PBTTT
7568,3836.988,0.03687,neat PBTTT
7569,3837.952,0.03668,neat PBTTT
7570,3838.917,0.03653,neat PBTTT
7571,3839.881,0.03647,neat PBTTT
7572,3840.845,0.03648,neat PBTTT
7573,3841.809,0.03655,neat PBTTT
7574,3842.77,0.03665,neat PBTTT
7575,3843.738,0.03678,neat PBTTT
7576,3844.702,0.03693,neat PBTTT
7577,3845.67,0.03708,neat PBTTT
7578,3846.631,0.03716,neat PBTTT
7579,3847.595,0.03713,neat PBTTT
7580,3848.559,0.03693,neat PBTTT
7581,3849.52,0.03654,neat PBTTT
7582,3850.487,0.03601,neat PBTTT
7583,3851.452,0.03549,neat PBTTT
7584,3852.42,0.03524,neat PBTTT
7585,3853.38,0.03545,neat PBTTT
7586,3854.344,0.036,neat PBTTT
7587,3855.309,0.03655,neat PBTTT
7588,3856.27,0.03688,neat PBTTT
7589,3857.237,0.03697,neat PBTTT
7590,3858.2,0.03688,neat PBTTT
7591,3859.17,0.03669,neat PBTTT
7592,3860.13,0.03649,neat PBTTT
7593,3861.094,0.03634,neat PBTTT
7594,3862.058,0.03629,neat PBTTT
7595,3863.02,0.03633,neat PBTTT
7596,3863.987,0.0364,neat PBTTT
7597,3864.95,0.03644,neat PBTTT
7598,3865.915,0.03644,neat PBTTT
7599,3866.88,0.03641,neat PBTTT
7600,3867.844,0.03637,neat PBTTT
7601,3868.808,0.03632,neat PBTTT
7602,3869.772,0.03628,neat PBTTT
7603,3870.736,0.03624,neat PBTTT
7604,3871.7,0.03623,neat PBTTT
7605,3872.665,0.0363,neat PBTTT
7606,3873.63,0.03647,neat PBTTT
7607,3874.593,0.03672,neat PBTTT
7608,3875.558,0.03696,neat PBTTT
7609,3876.522,0.03712,neat PBTTT
7610,3877.486,0.03714,neat PBTTT
7611,3878.45,0.03701,neat PBTTT
7612,3879.414,0.03678,neat PBTTT
7613,3880.38,0.03654,neat PBTTT
7614,3881.343,0.03639,neat PBTTT
7615,3882.31,0.03636,neat PBTTT
7616,3883.27,0.03646,neat PBTTT
7617,3884.236,0.03663,neat PBTTT
7618,3885.2,0.03682,neat PBTTT
7619,3886.164,0.03695,neat PBTTT
7620,3887.13,0.03694,neat PBTTT
7621,3888.093,0.03678,neat PBTTT
7622,3889.06,0.03652,neat PBTTT
7623,3890.02,0.03625,neat PBTTT
7624,3890.985,0.0361,neat PBTTT
7625,3891.95,0.03616,neat PBTTT
7626,3892.914,0.03639,neat PBTTT
7627,3893.88,0.03667,neat PBTTT
7628,3894.842,0.03689,neat PBTTT
7629,3895.81,0.03696,neat PBTTT
7630,3896.77,0.03688,neat PBTTT
7631,3897.735,0.03668,neat PBTTT
7632,3898.699,0.03645,neat PBTTT
7633,3899.663,0.03623,neat PBTTT
7634,3900.63,0.03608,neat PBTTT
7635,3901.592,0.03601,neat PBTTT
7636,3902.56,0.03602,neat PBTTT
7637,3903.52,0.03609,neat PBTTT
7638,3904.485,0.03622,neat PBTTT
7639,3905.449,0.03638,neat PBTTT
7640,3906.413,0.03655,neat PBTTT
7641,3907.377,0.0367,neat PBTTT
7642,3908.341,0.03681,neat PBTTT
7643,3909.31,0.03687,neat PBTTT
7644,3910.27,0.03688,neat PBTTT
7645,3911.23,0.03685,neat PBTTT
7646,3912.198,0.03677,neat PBTTT
7647,3913.163,0.03666,neat PBTTT
7648,3914.127,0.03655,neat PBTTT
7649,3915.091,0.03648,neat PBTTT
7650,3916.055,0.03648,neat PBTTT
7651,3917.02,0.03656,neat PBTTT
7652,3917.98,0.03669,neat PBTTT
7653,3918.948,0.0368,neat PBTTT
7654,3919.91,0.03684,neat PBTTT
7655,3920.877,0.03677,neat PBTTT
7656,3921.841,0.03663,neat PBTTT
7657,3922.805,0.03645,neat PBTTT
7658,3923.77,0.03632,neat PBTTT
7659,3924.73,0.03626,neat PBTTT
7660,3925.698,0.03629,neat PBTTT
7661,3926.66,0.03634,neat PBTTT
7662,3927.63,0.03638,neat PBTTT
7663,3928.59,0.03636,neat PBTTT
7664,3929.555,0.03632,neat PBTTT
7665,3930.52,0.03629,neat PBTTT
7666,3931.48,0.03631,neat PBTTT
7667,3932.447,0.03639,neat PBTTT
7668,3933.41,0.0365,neat PBTTT
7669,3934.38,0.0366,neat PBTTT
7670,3935.34,0.03666,neat PBTTT
7671,3936.304,0.03666,neat PBTTT
7672,3937.268,0.03661,neat PBTTT
7673,3938.23,0.03651,neat PBTTT
7674,3939.197,0.0364,neat PBTTT
7675,3940.16,0.03631,neat PBTTT
7676,3941.125,0.03627,neat PBTTT
7677,3942.09,0.03628,neat PBTTT
7678,3943.054,0.03635,neat PBTTT
7679,3944.018,0.03644,neat PBTTT
7680,3944.982,0.03651,neat PBTTT
7681,3945.947,0.03653,neat PBTTT
7682,3946.91,0.0365,neat PBTTT
7683,3947.875,0.03646,neat PBTTT
7684,3948.84,0.03642,neat PBTTT
7685,3949.804,0.03643,neat PBTTT
7686,3950.768,0.03647,neat PBTTT
7687,3951.732,0.03653,neat PBTTT
7688,3952.696,0.03659,neat PBTTT
7689,3953.66,0.03661,neat PBTTT
7690,3954.625,0.0366,neat PBTTT
7691,3955.59,0.03655,neat PBTTT
7692,3956.553,0.0365,neat PBTTT
7693,3957.52,0.03648,neat PBTTT
7694,3958.482,0.03651,neat PBTTT
7695,3959.446,0.03658,neat PBTTT
7696,3960.41,0.03667,neat PBTTT
7697,3961.37,0.03675,neat PBTTT
7698,3962.34,0.03678,neat PBTTT
7699,3963.303,0.03678,neat PBTTT
7700,3964.27,0.03674,neat PBTTT
7701,3965.23,0.03669,neat PBTTT
7702,3966.195,0.03664,neat PBTTT
7703,3967.16,0.0366,neat PBTTT
7704,3968.12,0.03656,neat PBTTT
7705,3969.09,0.03653,neat PBTTT
7706,3970.052,0.03649,neat PBTTT
7707,3971.02,0.03643,neat PBTTT
7708,3971.98,0.03637,neat PBTTT
7709,3972.945,0.0363,neat PBTTT
7710,3973.909,0.03623,neat PBTTT
7711,3974.87,0.0362,neat PBTTT
7712,3975.84,0.0362,neat PBTTT
7713,3976.802,0.03625,neat PBTTT
7714,3977.77,0.0363,neat PBTTT
7715,3978.73,0.03634,neat PBTTT
7716,3979.695,0.03635,neat PBTTT
7717,3980.659,0.03633,neat PBTTT
7718,3981.623,0.03631,neat PBTTT
7719,3982.587,0.0363,neat PBTTT
7720,3983.552,0.03631,neat PBTTT
7721,3984.52,0.03631,neat PBTTT
7722,3985.48,0.03628,neat PBTTT
7723,3986.44,0.03623,neat PBTTT
7724,3987.409,0.03616,neat PBTTT
7725,3988.373,0.0361,neat PBTTT
7726,3989.337,0.03608,neat PBTTT
7727,3990.301,0.03611,neat PBTTT
7728,3991.27,0.03616,neat PBTTT
7729,3992.23,0.03623,neat PBTTT
7730,3993.19,0.03627,neat PBTTT
7731,3994.158,0.0363,neat PBTTT
7732,3995.12,0.0363,neat PBTTT
7733,3996.087,0.03629,neat PBTTT
7734,3997.051,0.03626,neat PBTTT
7735,3998.015,0.03622,neat PBTTT
7736,3998.98,0.03616,neat PBTTT
7737,3999.94,0.03611,neat PBTTT
7738,4000.908,0.03607,neat PBTTT
7739,4001.87,0.03606,neat PBTTT
7740,4002.836,0.03608,neat PBTTT
7741,4003.801,0.0361,neat PBTTT
7742,4004.765,0.0361,neat PBTTT
7743,4005.73,0.03608,neat PBTTT
7744,4006.69,0.03605,neat PBTTT
7745,4007.658,0.03601,neat PBTTT
7746,4008.62,0.03599,neat PBTTT
7747,4009.586,0.03598,neat PBTTT
7748,4010.55,0.03599,neat PBTTT
7749,4011.514,0.03601,neat PBTTT
7750,4012.48,0.03606,neat PBTTT
7751,4013.44,0.03612,neat PBTTT
7752,4014.407,0.0362,neat PBTTT
7753,4015.37,0.03626,neat PBTTT
7754,4016.336,0.03628,neat PBTTT
7755,4017.3,0.03625,neat PBTTT
7756,4018.264,0.03617,neat PBTTT
7757,4019.228,0.03608,neat PBTTT
7758,4020.19,0.03603,neat PBTTT
7759,4021.157,0.03603,neat PBTTT
7760,4022.12,0.03607,neat PBTTT
7761,4023.085,0.03613,neat PBTTT
7762,4024.05,0.03616,neat PBTTT
7763,4025.014,0.03614,neat PBTTT
7764,4025.978,0.03609,neat PBTTT
7765,4026.942,0.036,neat PBTTT
7766,4027.906,0.03593,neat PBTTT
7767,4028.87,0.03588,neat PBTTT
7768,4029.835,0.03588,neat PBTTT
7769,4030.8,0.03591,neat PBTTT
7770,4031.763,0.03596,neat PBTTT
7771,4032.728,0.03601,neat PBTTT
7772,4033.692,0.03607,neat PBTTT
7773,4034.656,0.03611,neat PBTTT
7774,4035.62,0.03613,neat PBTTT
7775,4036.585,0.03614,neat PBTTT
7776,4037.55,0.03611,neat PBTTT
7777,4038.513,0.03606,neat PBTTT
7778,4039.48,0.03598,neat PBTTT
7779,4040.441,0.0359,neat PBTTT
7780,4041.406,0.03584,neat PBTTT
7781,4042.37,0.03581,neat PBTTT
7782,4043.33,0.03581,neat PBTTT
7783,4044.298,0.0358,neat PBTTT
7784,4045.263,0.03579,neat PBTTT
7785,4046.23,0.03577,neat PBTTT
7786,4047.191,0.03576,neat PBTTT
7787,4048.155,0.03577,neat PBTTT
7788,4049.12,0.0358,neat PBTTT
7789,4050.08,0.03584,neat PBTTT
7790,4051.048,0.03585,neat PBTTT
7791,4052.012,0.0358,neat PBTTT
7792,4052.98,0.03571,neat PBTTT
7793,4053.941,0.03558,neat PBTTT
7794,4054.905,0.03547,neat PBTTT
7795,4055.869,0.03539,neat PBTTT
7796,4056.833,0.03537,neat PBTTT
7797,4057.798,0.03541,neat PBTTT
7798,4058.762,0.0355,neat PBTTT
7799,4059.73,0.03563,neat PBTTT
7800,4060.69,0.03577,neat PBTTT
7801,4061.655,0.03592,neat PBTTT
7802,4062.619,0.03603,neat PBTTT
7803,4063.583,0.03609,neat PBTTT
7804,4064.547,0.03607,neat PBTTT
7805,4065.512,0.03599,neat PBTTT
7806,4066.48,0.03585,neat PBTTT
7807,4067.44,0.03568,neat PBTTT
7808,4068.4,0.03552,neat PBTTT
7809,4069.368,0.03538,neat PBTTT
7810,4070.333,0.03528,neat PBTTT
7811,4071.297,0.03521,neat PBTTT
7812,4072.261,0.03519,neat PBTTT
7813,4073.225,0.03521,neat PBTTT
7814,4074.19,0.03526,neat PBTTT
7815,4075.15,0.03533,neat PBTTT
7816,4076.118,0.03541,neat PBTTT
7817,4077.08,0.03547,neat PBTTT
7818,4078.047,0.03551,neat PBTTT
7819,4079.011,0.03553,neat PBTTT
7820,4079.975,0.03552,neat PBTTT
7821,4080.94,0.03549,neat PBTTT
7822,4081.9,0.03546,neat PBTTT
7823,4082.868,0.03543,neat PBTTT
7824,4083.83,0.03539,neat PBTTT
7825,4084.796,0.03536,neat PBTTT
7826,4085.76,0.03532,neat PBTTT
7827,4086.725,0.03528,neat PBTTT
7828,4087.69,0.03528,neat PBTTT
7829,4088.653,0.0353,neat PBTTT
7830,4089.617,0.03538,neat PBTTT
7831,4090.58,0.03548,neat PBTTT
7832,4091.546,0.03557,neat PBTTT
7833,4092.51,0.03563,neat PBTTT
7834,4093.474,0.03561,neat PBTTT
7835,4094.44,0.03553,neat PBTTT
7836,4095.403,0.03539,neat PBTTT
7837,4096.367,0.03526,neat PBTTT
7838,4097.331,0.03518,neat PBTTT
7839,4098.295,0.03518,neat PBTTT
7840,4099.26,0.03525,neat PBTTT
7841,4100.224,0.03536,neat PBTTT
7842,4101.188,0.03547,neat PBTTT
7843,4102.152,0.03553,neat PBTTT
7844,4103.117,0.03553,neat PBTTT
7845,4104.081,0.03549,neat PBTTT
7846,4105.045,0.03545,neat PBTTT
7847,4106.009,0.03542,neat PBTTT
7848,4106.974,0.03543,neat PBTTT
7849,4107.938,0.03546,neat PBTTT
7850,4108.902,0.03547,neat PBTTT
7851,4109.866,0.03544,neat PBTTT
7852,4110.831,0.03535,neat PBTTT
7853,4111.795,0.03523,neat PBTTT
7854,4112.759,0.03511,neat PBTTT
7855,4113.723,0.03505,neat PBTTT
7856,4114.687,0.03506,neat PBTTT
7857,4115.652,0.03514,neat PBTTT
7858,4116.616,0.03525,neat PBTTT
7859,4117.58,0.03533,neat PBTTT
7860,4118.544,0.03534,neat PBTTT
7861,4119.509,0.03526,neat PBTTT
7862,4120.473,0.03511,neat PBTTT
7863,4121.437,0.03497,neat PBTTT
7864,4122.401,0.03489,neat PBTTT
7865,4123.366,0.03489,neat PBTTT
7866,4124.33,0.03497,neat PBTTT
7867,4125.294,0.03506,neat PBTTT
7868,4126.258,0.03512,neat PBTTT
7869,4127.222,0.0351,neat PBTTT
7870,4128.187,0.03502,neat PBTTT
7871,4129.151,0.03493,neat PBTTT
7872,4130.115,0.03489,neat PBTTT
7873,4131.08,0.03492,neat PBTTT
7874,4132.044,0.03502,neat PBTTT
7875,4133.008,0.03515,neat PBTTT
7876,4133.972,0.03526,neat PBTTT
7877,4134.936,0.03532,neat PBTTT
7878,4135.901,0.03532,neat PBTTT
7879,4136.865,0.03528,neat PBTTT
7880,4137.83,0.03523,neat PBTTT
7881,4138.793,0.03518,neat PBTTT
7882,4139.758,0.03513,neat PBTTT
7883,4140.722,0.03509,neat PBTTT
7884,4141.686,0.03504,neat PBTTT
7885,4142.65,0.03499,neat PBTTT
7886,4143.61,0.03496,neat PBTTT
7887,4144.58,0.03495,neat PBTTT
7888,4145.543,0.03497,neat PBTTT
7889,4146.51,0.03499,neat PBTTT
7890,4147.471,0.035,neat PBTTT
7891,4148.436,0.03498,neat PBTTT
7892,4149.4,0.03492,neat PBTTT
7893,4150.36,0.03484,neat PBTTT
7894,4151.33,0.0348,neat PBTTT
7895,4152.293,0.0348,neat PBTTT
7896,4153.26,0.03486,neat PBTTT
7897,4154.221,0.03496,neat PBTTT
7898,4155.185,0.03505,neat PBTTT
7899,4156.149,0.03509,neat PBTTT
7900,4157.11,0.03505,neat PBTTT
7901,4158.08,0.03495,neat PBTTT
7902,4159.042,0.03479,neat PBTTT
7903,4160.01,0.03464,neat PBTTT
7904,4160.971,0.03452,neat PBTTT
7905,4161.935,0.03448,neat PBTTT
7906,4162.899,0.0345,neat PBTTT
7907,4163.863,0.03457,neat PBTTT
7908,4164.83,0.03465,neat PBTTT
7909,4165.792,0.03471,neat PBTTT
7910,4166.76,0.03476,neat PBTTT
7911,4167.72,0.03478,neat PBTTT
7912,4168.685,0.03479,neat PBTTT
7913,4169.649,0.03478,neat PBTTT
7914,4170.613,0.03477,neat PBTTT
7915,4171.577,0.03475,neat PBTTT
7916,4172.541,0.03472,neat PBTTT
7917,4173.51,0.0347,neat PBTTT
7918,4174.47,0.03467,neat PBTTT
7919,4175.434,0.03463,neat PBTTT
7920,4176.398,0.03457,neat PBTTT
7921,4177.363,0.03449,neat PBTTT
7922,4178.327,0.03439,neat PBTTT
7923,4179.291,0.03431,neat PBTTT
7924,4180.255,0.03425,neat PBTTT
7925,4181.22,0.03424,neat PBTTT
7926,4182.184,0.03428,neat PBTTT
7927,4183.148,0.03435,neat PBTTT
7928,4184.112,0.03445,neat PBTTT
7929,4185.076,0.03453,neat PBTTT
7930,4186.041,0.03459,neat PBTTT
7931,4187.005,0.03459,neat PBTTT
7932,4187.969,0.03456,neat PBTTT
7933,4188.933,0.0345,neat PBTTT
7934,4189.898,0.03446,neat PBTTT
7935,4190.862,0.03444,neat PBTTT
7936,4191.826,0.03445,neat PBTTT
7937,4192.79,0.03446,neat PBTTT
7938,4193.755,0.03445,neat PBTTT
7939,4194.719,0.0344,neat PBTTT
7940,4195.683,0.03432,neat PBTTT
7941,4196.647,0.03423,neat PBTTT
7942,4197.612,0.03416,neat PBTTT
7943,4198.576,0.03413,neat PBTTT
7944,4199.54,0.03413,neat PBTTT
7945,4200.504,0.03417,neat PBTTT
7946,4201.468,0.03421,neat PBTTT
7947,4202.433,0.03424,neat PBTTT
7948,4203.397,0.03428,neat PBTTT
7949,4204.361,0.0343,neat PBTTT
7950,4205.325,0.03433,neat PBTTT
7951,4206.29,0.03437,neat PBTTT
7952,4207.254,0.03439,neat PBTTT
7953,4208.218,0.03441,neat PBTTT
7954,4209.182,0.0344,neat PBTTT
7955,4210.147,0.03434,neat PBTTT
7956,4211.111,0.03423,neat PBTTT
7957,4212.075,0.03408,neat PBTTT
7958,4213.04,0.03392,neat PBTTT
7959,4214.003,0.03383,neat PBTTT
7960,4214.968,0.03384,neat PBTTT
7961,4215.932,0.03396,neat PBTTT
7962,4216.896,0.03415,neat PBTTT
7963,4217.86,0.03434,neat PBTTT
7964,4218.825,0.03447,neat PBTTT
7965,4219.79,0.03448,neat PBTTT
7966,4220.753,0.0344,neat PBTTT
7967,4221.72,0.03427,neat PBTTT
7968,4222.682,0.03414,neat PBTTT
7969,4223.646,0.03403,neat PBTTT
7970,4224.61,0.03397,neat PBTTT
7971,4225.57,0.03394,neat PBTTT
7972,4226.54,0.03394,neat PBTTT
7973,4227.503,0.03398,neat PBTTT
7974,4228.47,0.03404,neat PBTTT
7975,4229.431,0.03411,neat PBTTT
7976,4230.395,0.03414,neat PBTTT
7977,4231.36,0.03414,neat PBTTT
7978,4232.32,0.03409,neat PBTTT
7979,4233.288,0.034,neat PBTTT
7980,4234.252,0.03389,neat PBTTT
7981,4235.22,0.03378,neat PBTTT
7982,4236.181,0.0337,neat PBTTT
7983,4237.145,0.03366,neat PBTTT
7984,4238.109,0.03367,neat PBTTT
7985,4239.07,0.03371,neat PBTTT
7986,4240.038,0.03378,neat PBTTT
7987,4241.002,0.03383,neat PBTTT
7988,4241.97,0.03384,neat PBTTT
7989,4242.931,0.03381,neat PBTTT
7990,4243.895,0.03375,neat PBTTT
7991,4244.859,0.03369,neat PBTTT
7992,4245.823,0.03365,neat PBTTT
7993,4246.787,0.03363,neat PBTTT
7994,4247.752,0.03364,neat PBTTT
7995,4248.72,0.03368,neat PBTTT
7996,4249.68,0.03376,neat PBTTT
7997,4250.644,0.03386,neat PBTTT
7998,4251.609,0.03395,neat PBTTT
7999,4252.573,0.03401,neat PBTTT
8000,4253.537,0.03398,neat PBTTT
8001,4254.501,0.03388,neat PBTTT
8002,4255.47,0.03373,neat PBTTT
8003,4256.43,0.03356,neat PBTTT
8004,4257.394,0.03344,neat PBTTT
8005,4258.358,0.0334,neat PBTTT